TimeStamp,ax,ay,az,gx,gy,gz,mx,my,mz
1891.8577,-909.327,100.101,-419.924,3185.0,3508.75,-1540.0,548.72,-256.88,273.6
1891.9077,-920.795,106.14,-425.536,1986.25,1207.5,-1251.25,551.76,-272.08,262.96
1891.9577,-921.161,107.909,-423.645,245.0,-1487.5,-691.25,547.2,-256.88,259.92
1892.0077,-914.512,109.007,-418.765,-630.0,-5136.25,-1312.5,553.28,-272.08,264.48
1892.0577,-900.726,100.65,-419.253,568.75,-5320.0,-1977.5,553.28,-266.0,264.48
1892.1077,-900.055,102.907,-419.558,1898.75,-2966.25,-1330.0,548.72,-264.48,279.68
1892.1577,-903.044,104.31,-416.935,2537.5,638.75,-2056.25,563.92,-261.44,264.48
1892.2077,-910.12,105.408,-418.948,2292.5,1303.75,-2187.5,544.16,-255.36,267.52
1892.2577,-913.963,105.713,-420.961,2353.75,96.25,-1312.5,548.72,-266.0,259.92
1892.3077,-911.279,107.482,-419.192,1706.25,-953.75,-1076.25,557.84,-266.0,273.6
1892.3577,-909.937,111.02,-417.484,402.5,-1557.5,-831.25,535.04,-255.36,290.32
1892.4077,-911.035,111.813,-418.216,271.25,-1592.5,-2082.5,553.28,-253.84,269.04
1892.4577,-910.059,105.835,-411.994,1470.0,-1120.0,-2651.25,551.76,-252.32,272.08
1892.5077,-904.752,104.249,-413.519,2747.5,533.75,-1828.75,544.16,-264.48,267.52
1892.5577,-911.584,106.933,-418.033,2747.5,1260.0,-2091.25,559.36,-259.92,270.56
1892.6077,-912.011,107.36,-420.9,805.0,393.75,-2222.5,542.64,-253.84,273.6
1892.6577,-905.179,102.48,-424.56,262.5,595.0,-1758.75,551.76,-267.52,269.04
1892.7077,-906.216,103.578,-424.743,1242.5,175.0,-1391.25,542.64,-270.56,266.0
1892.7577,-905.484,109.983,-426.146,1443.75,175.0,-1242.5,541.12,-264.48,275.12
1892.8077,-903.349,108.824,-426.146,2065.0,-280.0,-2152.5,551.76,-266.0,279.68
1892.8577,-909.022,108.519,-425.353,2415.0,-595.0,-2397.5,548.72,-253.84,281.2
1892.9077,-908.717,108.702,-427.183,2441.25,-1487.5,-1968.75,528.96,-273.6,269.04
1892.9577,-906.094,111.264,-423.523,1601.25,-2065.0,-1697.5,554.8,-272.08,275.12
1893.0077,-904.081,108.214,-422.852,1216.25,-1470.0,-1802.5,548.72,-261.44,267.52
1893.0577,-909.144,106.567,-420.534,1400.0,-1303.75,-1855.0,551.76,-258.4,252.32
1893.1077,-906.46,108.336,-423.218,1627.5,-1146.25,-1636.25,541.12,-269.04,273.6
1893.1577,-904.203,110.288,-423.34,1408.75,-866.25,-1610.0,562.4,-253.84,258.4
1893.2077,-907.375,109.434,-422.303,1286.25,-665.0,-2572.5,548.72,-253.84,262.96
1893.2577,-914.634,106.384,-417.972,1487.5,-2388.75,-2905.0,559.36,-264.48,259.92
1893.3077,-902.495,105.957,-416.569,2187.5,-1128.75,-1303.75,551.76,-264.48,255.36
1893.3577,-905.362,114.131,-418.094,1312.5,-262.5,-1452.5,550.24,-264.48,266.0
1893.4077,-909.815,109.556,-421.144,-78.75,-192.5,-2572.5,551.76,-266.0,261.44
1893.4577,-905.179,104.554,-422.425,551.25,17.5,-1837.5,559.36,-258.4,264.48
1893.5077,-909.327,110.044,-425.17,2003.75,-420.0,-1645.0,556.32,-266.0,278.16
1893.5577,-906.826,111.996,-422.547,1373.75,-1137.5,-1837.5,554.8,-276.64,270.56
1893.6077,-905.728,110.837,-422.425,1076.25,-1198.75,-2100.0,565.44,-278.16,252.32
1893.6577,-908.595,107.421,-421.266,1216.25,-1085.0,-2056.25,557.84,-270.56,272.08
1893.7077,-907.802,108.275,-420.717,1338.75,-1207.5,-1925.0,551.76,-272.08,267.52
1893.7577,-905.24,107.604,-421.266,1225.0,-962.5,-1942.5,541.12,-266.0,259.92
1893.8077,-904.996,109.129,-419.009,1163.75,-560.0,-1968.75,547.2,-267.52,252.32
1893.8577,-909.51,110.593,-423.828,1653.75,-516.25,-2100.0,562.4,-276.64,264.48
1893.9077,-908.473,109.8,-422.913,1610.0,-1041.25,-2126.25,542.64,-259.92,269.04
1893.9577,-906.887,112.789,-420.229,1741.25,-1041.25,-2406.25,542.64,-270.56,255.36
1894.0077,-909.205,111.508,-419.253,1785.0,-778.75,-2126.25,538.08,-279.68,253.84
1894.0577,-902.983,108.031,-424.194,1566.25,43.75,-2073.75,556.32,-272.08,269.04
1894.1077,-916.159,107.421,-421.693,1881.25,-752.5,-3115.0,542.64,-252.32,264.48
1894.1577,-910.791,102.602,-420.29,1995.0,-1513.75,-1960.0,541.12,-261.44,267.52
1894.2077,-904.813,113.216,-421.022,1575.0,-385.0,-1225.0,556.32,-275.12,264.48
1894.2577,-904.752,114.07,-423.767,621.25,271.25,-2362.5,548.72,-262.96,266.0
1894.3077,-905.667,103.09,-423.157,848.75,8.75,-2546.25,538.08,-266.0,284.24
1894.3577,-900.055,102.114,-426.878,2012.5,577.5,-1898.75,547.2,-273.6,269.04
1894.4077,-905.423,112.545,-428.525,1601.25,-8.75,-2117.5,548.72,-269.04,262.96
1894.4577,-908.229,107.055,-430.111,743.75,-1015.0,-2485.0,550.24,-256.88,267.52
1894.5077,-903.105,108.336,-426.39,516.25,-1347.5,-2222.5,544.16,-266.0,255.36
1894.5577,-907.497,108.763,-425.475,1172.5,-1225.0,-2012.5,532.0,-270.56,249.28
1894.6077,-903.654,109.007,-425.231,1242.5,-1373.75,-1793.75,545.68,-261.44,258.4
1894.6577,-903.654,109.983,-425.658,971.25,-918.75,-2047.5,550.24,-270.56,259.92
1894.7077,-904.874,109.495,-423.523,945.0,-840.0,-2222.5,553.28,-276.64,272.08
1894.7577,-907.009,109.068,-423.096,1303.75,-1610.0,-2196.25,560.88,-272.08,267.52
1894.8077,-906.033,109.495,-426.024,1575.0,-1478.75,-2196.25,554.8,-276.64,264.48
1894.8577,-904.447,109.434,-422.425,1776.25,-1058.75,-2406.25,536.56,-267.52,270.56
1894.9077,-905.179,112.179,-421.815,1023.75,-752.5,-1671.25,548.72,-279.68,270.56
1894.9577,-901.885,109.922,-423.462,1067.5,175.0,-2345.0,545.68,-261.44,266.0
1895.0077,-911.95,107.909,-422.486,1417.5,-1146.25,-2931.25,538.08,-259.92,253.84
1895.0577,-903.227,101.382,-424.621,1890.0,-1417.5,-1881.25,545.68,-264.48,269.04
1895.1077,-905.911,112.667,-424.56,1610.0,-262.5,-1391.25,553.28,-266.0,275.12
1895.1577,-905.24,114.68,-424.316,525.0,-8.75,-2266.25,544.16,-266.0,273.6
1895.2077,-902.19,105.713,-425.353,796.25,-586.25,-2432.5,548.72,-267.52,262.96
1895.2577,-905.24,110.837,-427.0,2423.75,-262.5,-1513.75,536.56,-269.04,255.36
1895.3077,-909.144,113.582,-428.891,1601.25,-778.75,-2082.5,547.2,-261.44,272.08
1895.3577,-903.959,109.19,-423.157,735.0,-1461.25,-2248.75,536.56,-276.64,264.48
1895.4078,-901.824,107.482,-423.34,1268.75,-988.75,-2091.25,550.24,-273.6,255.36
1895.4577,-908.961,111.996,-425.048,1697.5,-988.75,-1706.25,544.16,-270.56,262.96
1895.5077,-905.301,113.948,-425.292,1400.0,-1181.25,-1802.5,538.08,-279.68,259.92
1895.5577,-907.131,112.301,-423.889,945.0,-516.25,-2178.75,539.6,-272.08,267.52
1895.6077,-907.741,110.349,-425.597,1155.0,-743.75,-2126.25,554.8,-266.0,256.88
1895.6577,-903.654,107.97,-426.512,1592.5,-1408.75,-1986.25,544.16,-264.48,266.0
1895.7077,-906.582,110.349,-423.401,1636.25,-1321.25,-2082.5,547.2,-267.52,261.44
1895.7577,-905.728,111.874,-422.12,1496.25,-1461.25,-2371.25,554.8,-276.64,253.84
1895.8077,-908.412,112.423,-422.242,1522.5,-857.5,-1898.75,548.72,-270.56,264.48
1895.8577,-903.837,113.582,-423.828,1286.25,-516.25,-1732.5,536.56,-276.64,256.88
1895.9077,-914.085,107.543,-422.12,1242.5,-1085.0,-3097.5,538.08,-269.04,262.96
1895.9577,-908.595,104.371,-421.205,1750.0,-1575.0,-2406.25,550.24,-270.56,266.0
1896.0077,-900.543,113.826,-419.07,1846.25,-367.5,-1478.75,551.76,-267.52,258.4
1896.0577,-906.887,113.033,-424.316,595.0,26.25,-2581.25,550.24,-276.64,261.44
1896.1077,-907.985,105.591,-423.157,647.5,-630.0,-2633.75,557.84,-273.6,258.4
1896.1577,-901.946,103.883,-426.512,2301.25,-35.0,-1610.0,557.84,-273.6,261.44
1896.2077,-907.985,115.595,-426.329,1881.25,-560.0,-1942.5,532.0,-266.0,258.4
1896.2577,-905.179,110.227,-425.841,857.5,-1443.75,-2196.25,551.76,-266.0,256.88
1896.3077,-906.338,111.874,-424.377,848.75,-1645.0,-2248.75,539.6,-262.96,252.32
1896.3577,-906.338,108.763,-424.56,1277.5,-1015.0,-2065.0,525.92,-258.4,262.96
1896.4077,-908.839,112.911,-424.682,1207.5,-1487.5,-1933.75,544.16,-266.0,255.36
1896.4577,-902.129,112.301,-421.266,805.0,-901.25,-1986.25,548.72,-270.56,258.4
1896.5077,-906.704,110.898,-422.059,638.75,-1216.25,-2406.25,550.24,-258.4,256.88
1896.5577,-907.436,109.434,-421.449,971.25,-1400.0,-2065.0,528.96,-272.08,261.44
1896.6077,-904.996,114.131,-422.913,1417.5,-1102.5,-1855.0,553.28,-269.04,261.44
1896.6577,-906.399,112.606,-420.107,1268.75,-892.5,-2091.25,545.68,-264.48,250.8
1896.7077,-907.741,112.179,-423.828,1478.75,-1408.75,-2047.5,538.08,-267.52,253.84
1896.7577,-906.033,110.837,-423.401,1391.25,-1583.75,-1680.0,548.72,-272.08,255.36
1896.8077,-904.813,114.619,-421.998,997.5,-831.25,-1986.25,553.28,-261.44,246.24
1896.8577,-911.706,113.643,-418.338,1452.5,-1601.25,-2852.5,551.76,-275.12,252.32
1896.9077,-905.972,105.896,-417.972,2003.75,-1478.75,-2143.75,559.36,-269.04,262.96
1896.9577,-906.277,114.619,-420.107,2318.75,140.0,-1811.25,547.2,-262.96,256.88
1897.0077,-908.534,115.839,-421.144,1181.25,-105.0,-2485.0,547.2,-270.56,256.88
1897.0577,-903.776,109.861,-419.924,1286.25,-236.25,-2511.25,553.28,-281.2,259.92
1897.1077,-908.229,105.774,-421.266,2248.75,-280.0,-2152.5,548.72,-278.16,276.64
1897.1577,-906.643,113.582,-424.621,2345.0,-315.0,-2231.25,547.2,-259.92,264.48
1897.2077,-907.375,109.739,-425.78,1671.25,-1120.0,-2178.75,541.12,-258.4,262.96
1897.2577,-903.105,108.031,-426.329,1872.5,-1023.75,-2170.0,542.64,-266.0,252.32
1897.3077,-909.693,109.251,-423.523,1671.25,-1408.75,-2143.75,539.6,-281.2,259.92
1897.3577,-903.349,110.715,-422.303,1356.25,-1452.5,-1881.25,541.12,-276.64,259.92
1897.4077,-906.399,110.349,-419.375,630.0,-831.25,-2222.5,527.44,-266.0,262.96
1897.4577,-905.667,109.129,-421.449,472.5,-525.0,-2012.5,542.64,-262.96,258.4
1897.5077,-905.179,106.75,-422.913,1251.25,-621.25,-1723.75,545.68,-270.56,249.28
1897.5577,-909.632,111.752,-421.937,1443.75,-936.25,-1898.75,542.64,-272.08,258.4
1897.6077,-903.837,110.959,-421.449,1330.0,-1102.5,-2283.75,542.64,-269.04,258.4
1897.6577,-906.155,110.898,-423.157,1426.25,-857.5,-1811.25,545.68,-276.64,253.84
1897.7077,-905.484,113.887,-421.205,901.25,-778.75,-1767.5,557.84,-273.6,258.4
1897.7577,-908.29,111.142,-421.754,1890.0,-533.75,-2826.25,542.64,-273.6,266.0
1897.8077,-910.364,109.007,-421.022,1837.5,-1505.0,-2546.25,548.72,-264.48,258.4
1897.8577,-903.776,113.399,-419.985,2327.5,-945.0,-1435.0,542.64,-266.0,259.92
1897.9077,-907.497,116.327,-422.242,1155.0,-350.0,-1968.75,560.88,-275.12,252.32
1897.9577,-910.12,108.763,-420.656,700.0,-262.5,-2817.5,547.2,-267.52,262.96
1898.0077,-901.458,104.615,-422.913,2642.5,411.25,-1592.5,542.64,-259.92,264.48
1898.0577,-908.229,112.728,-427.61,2660.0,-26.25,-1986.25,545.68,-267.52,258.4
1898.1077,-907.009,110.41,-427.366,1286.25,-813.75,-2135.0,541.12,-267.52,264.48
1898.1577,-904.447,108.58,-426.878,1216.25,-1242.5,-2327.5,550.24,-273.6,252.32
1898.2077,-908.9,107.665,-423.828,1330.0,-1032.5,-2065.0,544.16,-270.56,261.44
1898.2577,-906.643,109.068,-425.658,1085.0,-1295.0,-1793.75,556.32,-272.08,256.88
1898.3077,-904.813,111.752,-419.558,507.5,-980.0,-1680.0,553.28,-266.0,256.88
1898.3577,-909.571,111.63,-424.621,577.5,-735.0,-1855.0,539.6,-272.08,262.96
1898.4077,-905.911,110.044,-422.974,1242.5,-1163.75,-2003.75,535.04,-278.16,269.04
1898.4577,-901.58,113.704,-423.34,1426.25,-726.25,-1960.0,559.36,-261.44,255.36
1898.5077,-906.826,112.911,-421.388,1277.5,-603.75,-2143.75,554.8,-273.6,250.8
1898.5577,-908.839,109.007,-423.828,1478.75,-1006.25,-2345.0,530.48,-267.52,258.4
1898.6077,-906.277,111.996,-422.791,1583.75,-717.5,-1487.5,548.72,-276.64,256.88
1898.6577,-901.397,113.643,-425.475,1146.25,8.75,-2003.75,536.56,-272.08,266.0
1898.7077,-912.743,110.715,-421.693,1837.5,-831.25,-3176.25,547.2,-273.6,249.28
1898.7577,-904.386,106.811,-421.022,2415.0,-1610.0,-1933.75,550.24,-269.04,250.8
1898.8077,-903.227,115.412,-421.693,1452.5,-236.25,-1925.0,550.24,-279.68,252.32
1898.8577,-908.29,113.826,-422.669,472.5,-350.0,-2607.5,553.28,-275.12,256.88
1898.9077,-905.606,101.992,-422.974,1592.5,-630.0,-2275.0,545.68,-279.68,264.48
1898.9577,-904.874,107.726,-427.061,2782.5,8.75,-1522.5,541.12,-269.04,244.72
1899.0077,-907.619,116.205,-427.183,1233.75,-376.25,-2161.25,551.76,-262.96,264.48
1899.0577,-905.24,110.349,-424.255,656.25,-778.75,-2406.25,532.0,-267.52,258.4
1899.1077,-904.874,107.848,-426.451,1365.0,-761.25,-2231.25,547.2,-276.64,253.84
1899.1577,-904.874,107.848,-424.804,1741.25,-980.0,-2030.0,536.56,-275.12,244.72
1899.2077,-905.301,112.545,-422.364,1146.25,-1233.75,-1881.25,548.72,-273.6,243.2
1899.2577,-902.739,111.203,-422.852,437.5,-446.25,-1636.25,542.64,-269.04,256.88
1899.3077,-905.057,110.959,-423.279,796.25,-297.5,-2030.0,545.68,-276.64,250.8
1899.3577,-902.8,111.508,-424.255,1137.5,-866.25,-1785.0,545.68,-264.48,259.92
1899.4077,-904.264,114.192,-425.536,1365.0,-568.75,-1960.0,548.72,-269.04,256.88
1899.4577,-906.033,112.24,-423.218,1085.0,-936.25,-2362.5,535.04,-269.04,267.52
1899.5077,-903.776,113.094,-427.61,1015.0,-297.5,-1898.75,554.8,-270.56,262.96
1899.5577,-901.214,111.996,-426.146,918.75,-52.5,-1960.0,551.76,-275.12,256.88
1899.6077,-909.388,112.057,-428.403,2056.25,-148.75,-2843.75,538.08,-267.52,253.84
1899.6577,-908.9,113.704,-424.133,1522.5,-1715.0,-2213.75,538.08,-284.24,252.32
1899.7077,-896.944,116.754,-423.279,1181.25,-1487.5,-1426.25,541.12,-269.04,244.72
1899.7577,-905.789,118.096,-424.438,586.25,-577.5,-2012.5,545.68,-270.56,267.52
1899.8077,-906.46,110.044,-423.706,971.25,-901.25,-2555.0,538.08,-272.08,255.36
1899.8577,-899.689,108.031,-427.915,1846.25,-35.0,-1881.25,535.04,-270.56,259.92
1899.9077,-907.497,116.388,-429.623,2100.0,-507.5,-2021.25,553.28,-273.6,266.0
1899.9577,-905.24,114.68,-428.281,1172.5,-1461.25,-2275.0,551.76,-264.48,261.44
1900.0077,-901.458,111.081,-424.011,1190.0,-2012.5,-2336.25,553.28,-279.68,264.48
1900.0577,-906.704,111.813,-423.401,1995.0,-1172.5,-2205.0,556.32,-270.56,252.32
1900.1077,-906.826,115.839,-422.913,1758.75,-1356.25,-2030.0,544.16,-267.52,249.28
1900.1577,-901.214,113.399,-421.571,1260.0,-472.5,-2091.25,544.16,-267.52,258.4
1900.2077,-903.593,113.46,-423.401,1207.5,-192.5,-2563.75,542.64,-272.08,252.32
1900.2577,-907.436,111.569,-425.292,1417.5,-875.0,-2073.75,557.84,-262.96,258.4
1900.3077,-905.057,111.569,-425.414,1557.5,-1155.0,-1986.25,553.28,-273.6,253.84
1900.3577,-905.118,111.447,-423.645,1443.75,-1338.75,-2152.5,525.92,-275.12,243.2
1900.4077,-906.582,116.388,-422.12,1330.0,-822.5,-1767.5,541.12,-282.72,243.2
1900.4577,-900.299,115.778,-427.244,1225.0,-192.5,-2502.5,556.32,-267.52,252.32
1900.5077,-911.157,110.837,-424.499,1802.5,-988.75,-2992.5,553.28,-266.0,259.92
1900.5577,-907.253,106.628,-421.876,2126.25,-1400.0,-1933.75,547.2,-267.52,249.28
1900.6077,-899.201,115.778,-423.462,1898.75,-288.75,-1505.0,548.72,-281.2,256.88
1900.6577,-904.447,114.863,-424.133,840.0,-113.75,-2677.5,556.32,-273.6,264.48
1900.7077,-904.02,104.493,-429.135,1312.5,-8.75,-2738.75,535.04,-275.12,258.4
1900.7577,-900.238,104.859,-430.05,2485.0,332.5,-1610.0,542.64,-275.12,258.4
1900.8077,-907.07,115.534,-432.185,1872.5,-586.25,-2012.5,548.72,-273.6,264.48
1900.8577,-901.458,111.325,-429.135,840.0,-1303.75,-2275.0,541.12,-275.12,250.8
1900.9077,-904.447,109.373,-423.096,988.75,-988.75,-2213.75,545.68,-276.64,270.56
1900.9577,-905.179,110.532,-427.915,1295.0,-1015.0,-1968.75,550.24,-270.56,272.08
1901.0077,-904.935,111.386,-423.95,1286.25,-953.75,-1688.75,542.64,-275.12,259.92
1901.0577,-902.251,114.009,-427.671,962.5,-612.5,-2003.75,532.0,-266.0,252.32
1901.1077,-906.46,113.582,-427.854,848.75,-586.25,-2213.75,542.64,-278.16,266.0
1901.1577,-901.519,112.85,-429.928,1365.0,-918.75,-2371.25,551.76,-258.4,252.32
1901.2077,-903.471,111.081,-424.194,1636.25,-717.5,-2310.0,539.6,-279.68,256.88
1901.2577,-906.582,112.911,-425.841,1636.25,-962.5,-2187.5,541.12,-278.16,262.96
1901.3077,-905.728,115.29,-429.196,1505.0,-656.25,-1925.0,547.2,-276.64,259.92
1901.3577,-900.787,114.009,-426.085,1041.25,-280.0,-2231.25,544.16,-275.12,255.36
1901.4077,-907.558,106.933,-426.39,1610.0,-595.0,-3228.75,542.64,-272.08,253.84
1901.4577,-909.449,103.883,-424.499,1820.0,-1566.25,-2257.5,538.08,-288.8,258.4
1901.5077,-897.31,115.412,-424.804,1618.75,-568.75,-1120.0,541.12,-276.64,255.36
1901.5577,-906.338,118.035,-427.427,393.75,-306.25,-2091.25,536.56,-269.04,266.0
1901.6077,-902.739,107.055,-427.549,647.5,-708.75,-2520.0,530.48,-267.52,258.4
1901.6577,-901.763,109.739,-431.087,2546.25,253.75,-1557.5,539.6,-269.04,246.24
1901.7077,-908.229,118.706,-431.514,1925.0,-708.75,-1951.25,545.68,-270.56,255.36
1901.7577,-902.556,114.558,-431.819,770.0,-1776.25,-2143.75,535.04,-262.96,243.2
1901.8077,-902.068,112.484,-426.573,857.5,-2030.0,-2257.5,541.12,-270.56,253.84
1901.8577,-905.667,113.704,-425.475,1680.0,-1076.25,-2073.75,542.64,-272.08,256.88
1901.9077,-904.935,111.63,-425.292,1522.5,-1312.5,-1776.25,551.76,-262.96,259.92
1901.9577,-903.166,116.388,-425.536,1023.75,-603.75,-2021.25,539.6,-272.08,266.0
1902.0077,-906.033,115.046,-424.438,1111.25,-796.25,-2318.75,544.16,-273.6,253.84
1902.0577,-905.606,109.739,-427.427,1618.75,-980.0,-2012.5,535.04,-272.08,270.56
1902.1077,-905.24,111.63,-426.268,1968.75,-481.25,-2231.25,533.52,-279.68,262.96
1902.1577,-906.216,112.972,-427.61,1575.0,-621.25,-2310.0,530.48,-285.76,259.92
1902.2077,-903.532,112.606,-428.22,1522.5,-350.0,-1925.0,547.2,-275.12,249.28
1902.2578,-900.299,115.046,-427.915,1067.5,-393.75,-1776.25,539.6,-275.12,246.24
1902.3077,-906.582,109.922,-426.451,1811.25,-551.25,-3080.0,530.48,-273.6,259.92
1902.3577,-906.216,109.617,-429.867,2108.75,-1487.5,-2196.25,532.0,-290.32,270.56
1902.4077,-901.458,117.181,-426.451,1767.5,-525.0,-1435.0,533.52,-261.44,250.8
1902.4577,-902.007,115.534,-426.878,201.25,-253.75,-2677.5,542.64,-270.56,246.24
1902.5077,-908.473,105.591,-426.146,1093.75,-778.75,-2537.5,539.6,-273.6,264.48
1902.5577,-898.469,112.606,-431.331,3088.75,-201.25,-1268.75,539.6,-270.56,252.32
1902.6077,-903.349,119.133,-431.819,1828.75,-778.75,-2231.25,548.72,-266.0,252.32
1902.6577,-904.142,111.447,-431.331,805.0,-1601.25,-2126.25,541.12,-294.88,253.84
1902.7077,-901.946,108.275,-424.499,1032.5,-1715.0,-1898.75,548.72,-276.64,264.48
1902.7577,-904.142,111.508,-425.414,1566.25,-1233.75,-2161.25,539.6,-264.48,258.4
1902.8077,-905.24,112.179,-425.719,1330.0,-962.5,-1986.25,535.04,-276.64,253.84
1902.8577,-901.824,112.484,-425.414,1050.0,-691.25,-2170.0,541.12,-261.44,255.36
1902.9077,-904.081,111.081,-427.549,1050.0,-490.0,-2336.25,548.72,-270.56,256.88
1902.9577,-903.837,111.508,-430.05,1575.0,-787.5,-2021.25,547.2,-275.12,247.76
1903.0077,-902.983,112.423,-428.403,1478.75,-866.25,-1697.5,547.2,-275.12,252.32
1903.0577,-902.617,113.582,-428.037,1146.25,-1041.25,-2240.0,547.2,-273.6,249.28
1903.1077,-901.275,112.85,-426.024,1172.5,-647.5,-1881.25,548.72,-266.0,259.92
1903.1577,-899.811,113.826,-426.878,525.0,-752.5,-2222.5,557.84,-261.44,259.92
1903.2077,-906.216,109.922,-428.647,1548.75,-682.5,-2808.75,539.6,-273.6,266.0
1903.2577,-905.118,111.813,-424.56,1662.5,-1890.0,-2021.25,545.68,-267.52,262.96
1903.3077,-900.421,115.961,-424.56,1697.5,-1251.25,-1557.5,536.56,-269.04,246.24
1903.3577,-902.983,117.059,-425.719,1251.25,-8.75,-2686.25,542.64,-262.96,269.04
1903.4077,-907.497,109.007,-429.135,1592.5,-236.25,-2450.0,536.56,-276.64,270.56
1903.4577,-899.75,111.874,-430.294,2301.25,-402.5,-1548.75,539.6,-270.56,264.48
1903.5077,-907.314,117.669,-431.026,1741.25,-568.75,-2170.0,542.64,-272.08,243.2
1903.5577,-904.63,110.227,-430.05,1067.5,-1216.25,-2336.25,539.6,-258.4,256.88
1903.6077,-902.434,113.033,-429.501,1688.75,-927.5,-2047.5,560.88,-256.88,250.8
1903.6577,-903.715,111.264,-430.233,1592.5,-945.0,-2161.25,538.08,-272.08,253.84
1903.7077,-905.667,114.985,-426.878,1041.25,-1653.75,-1750.0,536.56,-269.04,240.16
1903.7577,-902.495,115.778,-427.854,1093.75,-1295.0,-1837.5,544.16,-278.16,261.44
1903.8077,-902.373,113.704,-425.658,1225.0,-822.5,-2213.75,557.84,-269.04,259.92
1903.8577,-905.24,113.277,-427.183,1155.0,-1111.25,-2091.25,551.76,-279.68,269.04
1903.9077,-904.63,113.948,-423.401,1662.5,-857.5,-2213.75,545.68,-279.68,273.6
1903.9577,-903.471,114.68,-426.878,1548.75,-376.25,-2091.25,551.76,-266.0,256.88
1904.0077,-904.63,114.131,-429.501,1575.0,-166.25,-1557.5,535.04,-272.08,255.36
1904.0577,-900.543,114.375,-430.843,1137.5,-96.25,-2283.75,542.64,-272.08,262.96
1904.1077,-908.595,111.569,-429.989,1793.75,-770.0,-2992.5,536.56,-267.52,267.52
1904.1577,-900.726,108.824,-424.438,2301.25,-1452.5,-1671.25,524.4,-276.64,256.88
1904.2077,-897.92,115.412,-425.353,1697.5,-560.0,-1330.0,536.56,-287.28,258.4
1904.2577,-906.216,116.632,-430.416,638.75,70.0,-2625.0,547.2,-273.6,258.4
1904.3077,-904.752,107.604,-428.952,1085.0,-665.0,-2546.25,551.76,-269.04,250.8
1904.3577,-905.728,108.519,-429.196,2432.5,236.25,-1968.75,544.16,-269.04,256.88
1904.4077,-903.715,113.887,-431.819,1260.0,-638.75,-2135.0,548.72,-276.64,256.88
1904.4577,-901.702,109.434,-429.074,840.0,-997.5,-2091.25,535.04,-276.64,266.0
1904.5077,-903.898,111.63,-431.88,1452.5,-813.75,-1986.25,553.28,-264.48,275.12
1904.5577,-903.776,112.545,-429.867,1408.75,-1102.5,-2082.5,554.8,-272.08,264.48
1904.6077,-901.885,112.85,-428.22,1190.0,-1076.25,-1793.75,547.2,-270.56,253.84
1904.6577,-899.994,113.521,-430.111,1146.25,-682.5,-1671.25,532.0,-278.16,255.36
1904.7077,-903.837,112.423,-431.392,883.75,-927.5,-2161.25,539.6,-278.16,262.96
1904.7577,-902.373,113.887,-428.83,1408.75,-796.25,-2170.0,541.12,-276.64,259.92
1904.8077,-901.58,113.277,-427.061,1662.5,-866.25,-2100.0,553.28,-262.96,249.28
1904.8577,-901.885,112.667,-430.233,1837.5,-770.0,-2178.75,533.52,-270.56,261.44
1904.9077,-905.423,116.571,-427.915,1776.25,-673.75,-1767.5,528.96,-278.16,250.8
1904.9577,-899.689,113.643,-432.185,840.0,-498.75,-2642.5,541.12,-264.48,261.44
1905.0077,-908.717,108.763,-428.769,1662.5,-1102.5,-3053.75,533.52,-281.2,276.64
1905.0577,-901.458,107.726,-429.684,2353.75,-1452.5,-1198.75,536.56,-279.68,256.88
1905.1077,-894.931,119.499,-428.952,1820.0,-271.25,-1382.5,542.64,-275.12,267.52
1905.1577,-904.691,113.338,-428.647,315.0,-70.0,-2852.5,547.2,-261.44,243.2
1905.2078,-900.116,105.713,-429.684,2021.25,-376.25,-1925.0,550.24,-266.0,259.92
1905.2577,-899.079,112.972,-435.906,2703.75,78.75,-1487.5,551.76,-275.12,262.96
1905.3077,-904.691,117.303,-436.821,1303.75,-962.5,-2598.75,545.68,-278.16,266.0
1905.3577,-905.179,113.399,-432.429,778.75,-1618.75,-2388.75,551.76,-273.6,264.48
1905.4077,-900.543,110.898,-430.294,1356.25,-1225.0,-2003.75,545.68,-264.48,250.8
1905.4577,-902.678,112.972,-429.745,1505.0,-1198.75,-2170.0,548.72,-281.2,258.4
1905.5077,-902.251,114.07,-429.623,1382.5,-918.75,-2038.75,542.64,-269.04,262.96
1905.5577,-902.861,112.728,-428.647,673.75,-665.0,-2100.0,533.52,-272.08,262.96
1905.6077,-905.24,114.192,-429.928,1015.0,-621.25,-2126.25,539.6,-278.16,256.88
1905.6577,-904.081,113.033,-431.331,1767.5,-813.75,-2170.0,538.08,-279.68,253.84
1905.7077,-901.458,112.423,-429.989,2030.0,-507.5,-1960.0,547.2,-258.4,256.88
1905.7577,-903.044,112.606,-430.05,1723.75,-717.5,-2170.0,542.64,-279.68,253.84
1905.8077,-902.739,112.667,-432.429,1601.25,-463.75,-1890.0,542.64,-273.6,262.96
1905.8577,-899.445,115.839,-433.344,936.25,-656.25,-1907.5,556.32,-267.52,258.4
1905.9077,-903.593,111.935,-431.697,866.25,-385.0,-2747.5,524.4,-279.68,262.96
1905.9577,-907.009,109.19,-428.098,1785.0,-1750.0,-1802.5,550.24,-279.68,264.48
1906.0077,-895.358,120.048,-427.61,2021.25,-245.0,-1120.0,556.32,-267.52,252.32
1906.0577,-900.116,121.024,-431.27,822.5,350.0,-2520.0,528.96,-272.08,261.44
1906.1077,-907.619,109.068,-432.978,787.5,-8.75,-2861.25,536.56,-279.68,269.04
1906.1578,-897.188,104.371,-435.601,2047.5,210.0,-1986.25,533.52,-284.24,261.44
1906.2077,-902.251,118.767,-437.858,2327.5,-630.0,-1881.25,548.72,-282.72,253.84
1906.2577,-900.482,114.924,-437.858,1102.5,-1356.25,-2415.0,539.6,-267.52,256.88
1906.3077,-899.628,110.41,-432.734,367.5,-1566.25,-2108.75,539.6,-275.12,250.8
1906.3577,-899.994,110.959,-433.954,1067.5,-1391.25,-2073.75,550.24,-281.2,253.84
1906.4077,-901.824,111.752,-430.721,1216.25,-1321.25,-2073.75,541.12,-270.56,270.56
1906.4577,-899.811,114.497,-431.453,1015.0,-708.75,-1688.75,547.2,-273.6,262.96
1906.5077,-901.153,116.205,-431.148,735.0,-385.0,-2100.0,556.32,-270.56,261.44
1906.5577,-902.312,111.874,-431.27,831.25,-691.25,-1802.5,535.04,-269.04,275.12
1906.6077,-900.665,114.619,-434.198,1303.75,-665.0,-1697.5,541.12,-281.2,262.96
1906.6577,-901.397,115.839,-433.527,1295.0,-866.25,-2292.5,538.08,-275.12,267.52
1906.7077,-899.994,114.558,-434.32,1190.0,-612.5,-2065.0,541.12,-275.12,255.36
1906.7577,-897.859,115.534,-432.429,848.75,-481.25,-1872.5,541.12,-269.04,269.04
1906.8077,-906.155,113.765,-434.32,1601.25,-787.5,-2826.25,542.64,-276.64,262.96
