TimeStamp,ax,ay,az,gx,gy,gz,mx,my,mz
1989.7577,-929.213,110.959,-370.636,1443.75,-393.75,-1776.25,557.84,-270.56,246.24
1989.8077,-933.056,110.837,-368.684,1391.25,-455.0,-2668.75,562.4,-281.2,232.56
1989.8577,-935.984,105.164,-365.512,1531.25,-1671.25,-2283.75,553.28,-285.76,246.24
1989.9077,-922.686,106.262,-364.414,2082.5,-393.75,-2021.25,566.96,-275.12,253.84
1989.9577,-935.557,113.216,-367.647,927.5,385.0,-2686.25,566.96,-273.6,241.68
1990.0077,-932.324,106.445,-371.978,1023.75,8.75,-2686.25,557.84,-261.44,237.12
1990.0577,-924.943,103.639,-374.235,2581.25,166.25,-1767.5,553.28,-262.96,235.6
1990.1077,-931.287,112.179,-377.407,1741.25,-218.75,-2695.0,562.4,-269.04,241.68
1990.1577,-935.923,107.848,-372.771,840.0,-647.5,-2537.5,560.88,-269.04,241.68
1990.2077,-925.675,104.432,-368.684,1330.0,-735.0,-2485.0,570.0,-278.16,250.8
1990.2577,-929.701,106.75,-372.588,1846.25,-262.5,-2283.75,553.28,-278.16,253.84
1990.3077,-927.688,108.458,-374.845,1330.0,70.0,-2012.5,573.04,-270.56,249.28
1990.3577,-931.531,108.519,-376.614,892.5,280.0,-1933.75,551.76,-270.56,243.2
1990.4077,-927.322,108.214,-375.638,848.75,-113.75,-2170.0,541.12,-264.48,241.68
1990.4577,-927.505,105.774,-373.686,1382.5,-70.0,-2222.5,566.96,-276.64,252.32
1990.5077,-930.311,109.19,-379.359,1540.0,-656.25,-2082.5,559.36,-264.48,247.76
1990.5577,-921.222,109.068,-380.396,1321.25,-402.5,-2030.0,562.4,-275.12,244.72
1990.6077,-927.871,108.763,-381.738,1435.0,-218.75,-2826.25,550.24,-272.08,235.6
1990.6577,-933.971,104.066,-377.712,1942.5,-2196.25,-2625.0,570.0,-264.48,256.88
1990.7077,-928.115,102.053,-373.686,1986.25,-2196.25,-1557.5,556.32,-276.64,250.8
1990.7577,-928.786,112.423,-373.32,1006.25,-700.0,-1767.5,560.88,-270.56,243.2
1990.8077,-934.398,108.702,-376.126,376.25,-787.5,-2677.5,562.4,-275.12,237.12
1990.8577,-923.113,102.175,-374.784,1085.0,-437.5,-1960.0,570.0,-285.76,244.72
1990.9077,-932.873,110.41,-376.858,2152.5,-630.0,-1881.25,550.24,-270.56,247.76
1990.9577,-926.224,109.007,-377.651,1820.0,-927.5,-2187.5,565.44,-272.08,247.76
1991.0077,-930.982,106.262,-377.224,1618.75,-1435.0,-2458.75,574.56,-273.6,243.2
1991.0577,-929.579,105.591,-375.638,1513.75,-1295.0,-2091.25,560.88,-273.6,238.64
1991.1077,-932.324,106.506,-376.736,901.25,-1452.5,-2003.75,565.44,-272.08,241.68
1991.1578,-929.091,105.713,-372.893,656.25,-1671.25,-1680.0,542.64,-279.68,244.72
1991.2077,-926.59,108.153,-371.124,1155.0,-630.0,-2056.25,566.96,-279.68,237.12
1991.2577,-932.08,106.445,-374.174,1233.75,-778.75,-2038.75,560.88,-278.16,237.12
1991.3077,-928.359,106.079,-374.296,1618.75,-1102.5,-1872.5,551.76,-269.04,250.8
1991.3577,-927.688,109.983,-372.466,761.25,-1207.5,-1846.25,565.44,-284.24,247.76
1991.4077,-928.969,110.471,-373.381,761.25,-901.25,-2528.75,574.56,-266.0,241.68
1991.4577,-935.191,106.201,-369.416,1601.25,-1461.25,-2520.0,562.4,-275.12,240.16
1991.5077,-928.969,102.785,-367.708,2450.0,-1146.25,-1522.5,544.16,-278.16,244.72
1991.5577,-928.298,115.351,-372.405,1863.75,-428.75,-1907.5,562.4,-270.56,262.96
1991.6077,-930.555,109.983,-373.442,1050.0,-245.0,-2476.25,557.84,-264.48,240.16
1991.6577,-929.64,102.724,-374.052,1443.75,-113.75,-2126.25,550.24,-270.56,235.6
1991.7077,-932.263,109.922,-376.736,1715.0,-813.75,-1942.5,557.84,-285.76,237.12
1991.7577,-929.274,109.068,-377.529,1260.0,-726.25,-2126.25,568.48,-278.16,238.64
1991.8077,-930.128,104.371,-376.309,945.0,-761.25,-2537.5,556.32,-275.12,226.48
1991.8577,-931.531,105.652,-374.601,1548.75,-787.5,-2511.25,560.88,-270.56,241.68
1991.9077,-932.019,106.933,-374.601,1916.25,-1137.5,-1898.75,560.88,-272.08,234.08
1991.9577,-928.237,111.203,-372.405,1723.75,-673.75,-1837.5,551.76,-266.0,243.2
1992.0077,-931.836,111.569,-372.466,1102.5,-411.25,-2406.25,553.28,-276.64,244.72
1992.0577,-927.566,107.299,-373.259,1338.75,-262.5,-2695.0,562.4,-275.12,259.92
1992.1077,-930.86,106.079,-374.113,2021.25,-393.75,-2231.25,565.44,-276.64,252.32
1992.1577,-929.213,108.153,-375.699,1802.5,-201.25,-1680.0,551.76,-270.56,244.72
1992.2077,-927.322,112.911,-378.993,1286.25,52.5,-2073.75,560.88,-269.04,243.2
1992.2577,-931.836,105.53,-375.821,1557.5,-455.0,-3430.0,560.88,-269.04,241.68
1992.3077,-929.945,100.528,-374.418,1671.25,-945.0,-2345.0,563.92,-278.16,243.2
1992.3577,-925.797,109.312,-376.492,1758.75,-8.75,-1417.5,565.44,-276.64,237.12
1992.4077,-929.884,112.057,-378.505,805.0,-122.5,-2537.5,560.88,-273.6,238.64
1992.4577,-927.566,100.894,-381.372,1032.5,157.5,-2476.25,573.04,-264.48,246.24
1992.5077,-929.884,104.31,-382.287,2143.75,-393.75,-1837.5,556.32,-281.2,241.68
1992.5577,-928.542,111.813,-384.666,1531.25,-603.75,-2038.75,560.88,-275.12,250.8
1992.6077,-928.115,103.456,-379.481,778.75,-1067.5,-2520.0,563.92,-267.52,255.36
1992.6577,-928.115,103.761,-381.616,1128.75,-988.75,-2388.75,566.96,-275.12,243.2
1992.7077,-927.505,106.079,-380.823,1260.0,-1417.5,-1750.0,550.24,-278.16,244.72
1992.7577,-924.577,106.079,-375.638,1058.75,-1242.5,-1925.0,554.8,-282.72,232.56
1992.8077,-926.773,106.201,-377.346,1146.25,-735.0,-2056.25,570.0,-282.72,224.96
1992.8577,-928.725,107.299,-379.481,1023.75,-962.5,-1890.0,554.8,-264.48,235.6
1992.9077,-927.261,106.079,-378.505,1242.5,-1146.25,-2126.25,557.84,-270.56,241.68
1992.9577,-927.017,109.068,-378.2,1583.75,-892.5,-1881.25,573.04,-278.16,238.64
1993.0077,-922.869,108.641,-380.091,1190.0,-516.25,-2030.0,565.44,-267.52,240.16
1993.0577,-931.958,106.323,-381.067,2065.0,-595.0,-2782.5,568.48,-262.96,240.16
1993.1077,-935.618,106.384,-377.468,1855.0,-1977.5,-2511.25,551.76,-270.56,234.08
1993.1577,-923.296,109.068,-375.943,1522.5,-1610.0,-1548.75,557.84,-278.16,246.24
1993.2077,-928.42,111.447,-376.004,831.25,-1111.25,-1890.0,570.0,-273.6,249.28
1993.2577,-930.311,104.859,-375.821,822.5,-980.0,-2450.0,566.96,-281.2,237.12
1993.3077,-926.468,100.345,-377.102,2380.0,-323.75,-1951.25,556.32,-270.56,250.8
1993.3577,-930.494,110.044,-378.261,1942.5,-752.5,-1785.0,562.4,-278.16,234.08
1993.4077,-927.505,108.275,-375.699,1076.25,-1093.75,-2021.25,565.44,-276.64,238.64
1993.4577,-928.908,104.31,-378.81,1146.25,-1137.5,-2178.75,562.4,-264.48,247.76
1993.5077,-930.738,104.798,-376.248,1470.0,-1155.0,-2021.25,547.2,-272.08,250.8
1993.5577,-927.749,106.14,-375.943,1627.5,-1102.5,-1793.75,562.4,-275.12,229.52
1993.6077,-926.346,111.935,-377.407,1015.0,-647.5,-1496.25,565.44,-261.44,232.56
1993.6577,-926.468,107.848,-376.309,665.0,-542.5,-2012.5,565.44,-267.52,243.2
1993.7077,-931.348,107.482,-375.272,1032.5,-700.0,-2336.25,536.56,-278.16,250.8
1993.7577,-924.943,108.885,-376.492,1715.0,-971.25,-2073.75,562.4,-275.12,235.6
1993.8077,-930.006,111.203,-378.871,1758.75,-551.25,-1811.25,557.84,-284.24,249.28
1993.8577,-927.2,109.19,-378.932,717.5,-822.5,-2476.25,553.28,-259.92,250.8
1993.9077,-931.653,104.676,-376.309,1487.5,-857.5,-3255.0,559.36,-259.92,241.68
1993.9577,-928.603,103.7,-375.028,2012.5,-1592.5,-1426.25,550.24,-275.12,223.44
1994.0077,-922.93,113.338,-375.638,1732.5,-910.0,-1408.75,557.84,-270.56,235.6
1994.0577,-930.006,109.251,-376.675,105.0,-542.5,-3018.75,557.84,-276.64,252.32
1994.1077,-925.919,99.003,-373.686,1890.0,-533.75,-2178.75,551.76,-270.56,250.8
1994.1577,-926.834,101.931,-377.041,3158.75,227.5,-1837.5,570.0,-285.76,237.12
1994.2077,-931.714,113.277,-382.165,1680.0,-402.5,-2493.75,551.76,-275.12,237.12
1994.2577,-930.799,107.726,-379.359,647.5,-848.75,-2415.0,553.28,-273.6,243.2
1994.3077,-926.834,104.005,-376.919,1058.75,-778.75,-2388.75,544.16,-273.6,241.68
1994.3577,-928.847,106.506,-378.078,1758.75,-822.5,-2100.0,560.88,-285.76,243.2
1994.4078,-928.847,105.774,-377.834,1890.0,-647.5,-2073.75,565.44,-272.08,249.28
1994.4577,-928.115,108.336,-378.444,1093.75,-306.25,-2222.5,562.4,-278.16,244.72
1994.5077,-925.065,108.275,-380.579,980.0,-393.75,-2257.5,548.72,-284.24,237.12
1994.5577,-930.311,106.811,-377.407,1356.25,-673.75,-2222.5,559.36,-269.04,232.56
1994.6077,-925.614,105.347,-381.006,1470.0,-682.5,-1828.75,559.36,-266.0,244.72
1994.6577,-925.98,111.874,-376.858,997.5,-805.0,-1828.75,551.76,-276.64,237.12
1994.7077,-924.211,107.97,-380.701,1015.0,-341.25,-2450.0,545.68,-269.04,249.28
1994.7577,-933.605,105.835,-377.895,1496.25,-1050.0,-2712.5,574.56,-276.64,241.68
1994.8077,-923.845,103.578,-375.15,1636.25,-1198.75,-1636.25,566.96,-270.56,240.16
1994.8577,-925.858,112.911,-378.871,1347.5,8.75,-1811.25,554.8,-272.08,250.8
1994.9077,-926.346,107.177,-380.945,1067.5,-131.25,-2668.75,550.24,-281.2,235.6
1994.9577,-921.771,103.822,-382.592,1627.5,-665.0,-2065.0,559.36,-276.64,258.4
1995.0077,-928.237,110.898,-385.398,2248.75,-840.0,-2126.25,556.32,-269.04,244.72
1995.0577,-925.98,108.519,-383.324,1435.0,-1163.75,-2248.75,547.2,-285.76,237.12
1995.1077,-927.383,104.981,-379.42,1426.25,-1181.25,-2248.75,547.2,-276.64,253.84
1995.1577,-927.627,104.798,-383.324,1470.0,-1268.75,-2257.5,553.28,-270.56,259.92
1995.2077,-927.078,105.164,-376.858,1426.25,-1785.0,-1986.25,559.36,-261.44,252.32
1995.2577,-926.773,104.432,-379.054,1330.0,-1268.75,-1977.5,545.68,-269.04,241.68
1995.3077,-926.529,106.75,-379.664,1102.5,-1120.0,-1881.25,553.28,-284.24,250.8
1995.3577,-930.006,107.116,-379.664,1172.5,-1505.0,-2108.75,574.56,-275.12,234.08
1995.4077,-927.261,105.774,-377.102,1216.25,-1741.25,-1951.25,541.12,-275.12,246.24
1995.4577,-929.091,110.532,-377.59,1093.75,-1487.5,-1741.25,554.8,-279.68,241.68
1995.5077,-924.211,108.763,-378.383,927.5,-1452.5,-2038.75,551.76,-273.6,253.84
1995.5577,-938.058,108.702,-372.893,1373.75,-2100.0,-2642.5,554.8,-273.6,253.84
1995.6077,-931.409,104.92,-371.124,1575.0,-2108.75,-1863.75,545.68,-269.04,246.24
1995.6577,-924.943,111.508,-371.49,1330.0,-568.75,-1417.5,560.88,-278.16,244.72
1995.7077,-931.836,109.007,-374.296,708.75,-490.0,-2616.25,556.32,-276.64,246.24
1995.7577,-926.346,106.079,-374.235,1198.75,-752.5,-2187.5,560.88,-278.16,246.24
1995.8077,-928.237,109.434,-375.76,2476.25,-516.25,-1960.0,548.72,-272.08,241.68
1995.8577,-929.457,109.617,-376.797,1802.5,-665.0,-1916.25,574.56,-273.6,247.76
1995.9077,-929.03,110.227,-374.967,1146.25,-831.25,-2213.75,550.24,-276.64,246.24
1995.9577,-928.237,108.153,-376.492,1417.5,-603.75,-2450.0,550.24,-279.68,247.76
1996.0077,-929.457,107.177,-376.675,1645.0,-1023.75,-2082.5,547.2,-269.04,255.36
1996.0577,-929.396,112.179,-375.15,1347.5,-726.25,-1548.75,556.32,-281.2,244.72
1996.1077,-925.553,109.251,-375.272,1006.25,-393.75,-2178.75,557.84,-269.04,240.16
1996.1577,-929.518,104.92,-376.248,1662.5,236.25,-2493.75,551.76,-276.64,246.24
1996.2077,-927.932,106.567,-376.004,2406.25,420.0,-2117.5,562.4,-276.64,232.56
1996.2577,-930.372,110.166,-379.664,2126.25,-157.5,-1846.25,573.04,-281.2,234.08
1996.3077,-926.834,113.277,-379.603,1330.0,-673.75,-1960.0,562.4,-279.68,252.32
1996.3577,-924.76,107.848,-379.786,551.25,-122.5,-2948.75,548.72,-275.12,231.04
1996.4077,-933.849,105.225,-377.041,1452.5,-752.5,-3027.5,566.96,-279.68,237.12
1996.4577,-922.198,103.944,-376.98,2310.0,-988.75,-1303.75,563.92,-262.96,241.68
1996.5077,-926.041,113.826,-377.895,945.0,306.25,-2240.0,570.0,-273.6,240.16
1996.5577,-930.86,110.776,-382.348,446.25,78.75,-2677.5,550.24,-266.0,258.4
1996.6077,-922.442,103.7,-382.47,1513.75,157.5,-2012.5,565.44,-278.16,238.64
1996.6577,-926.346,107.177,-385.093,2196.25,-78.75,-2126.25,545.68,-270.56,247.76
1996.7077,-922.93,109.129,-386.313,1163.75,-385.0,-2415.0,551.76,-281.2,244.72
1996.7577,-925.004,106.445,-383.873,1137.5,-770.0,-2318.75,557.84,-276.64,237.12
1996.8077,-926.834,107.482,-385.154,1417.5,-875.0,-2205.0,565.44,-266.0,241.68
1996.8577,-924.821,106.872,-382.165,1338.75,-1225.0,-1916.25,550.24,-273.6,232.56
1996.9077,-926.346,107.604,-382.531,1452.5,-1076.25,-1680.0,551.76,-275.12,235.6
1996.9577,-923.418,110.044,-380.945,945.0,-1251.25,-1960.0,551.76,-269.04,234.08
1997.0077,-925.797,107.116,-381.86,1190.0,-1233.75,-2257.5,574.56,-281.2,235.6
1997.0577,-926.712,104.676,-379.359,1898.75,-1303.75,-1986.25,554.8,-267.52,246.24
1997.1077,-925.98,108.031,-380.701,1951.25,-1085.0,-1706.25,554.8,-291.84,262.96
1997.1577,-924.333,108.336,-379.115,1190.0,-1172.5,-2012.5,566.96,-288.8,243.2
1997.2077,-930.372,108.519,-379.237,1120.0,-1102.5,-2668.75,541.12,-278.16,244.72
1997.2577,-926.285,106.14,-377.407,1566.25,-1793.75,-1837.5,557.84,-272.08,247.76
1997.3077,-925.187,112.179,-376.614,1697.5,-953.75,-1330.0,570.0,-272.08,237.12
1997.3577,-929.396,116.205,-380.64,840.0,-831.25,-2038.75,559.36,-261.44,237.12
1997.4077,-927.688,106.262,-379.42,980.0,-787.5,-2310.0,562.4,-279.68,243.2
1997.4577,-925.187,105.957,-383.507,2038.75,-918.75,-1898.75,560.88,-285.76,232.56
1997.5077,-925.126,110.288,-380.762,1750.0,-980.0,-1758.75,568.48,-270.56,238.64
1997.5577,-931.836,111.63,-379.908,1233.75,-1032.5,-1881.25,551.76,-275.12,220.4
1997.6077,-923.784,110.105,-378.566,1347.5,-980.0,-2257.5,532.0,-281.2,252.32
1997.6577,-928.725,109.8,-378.017,1338.75,-1382.5,-2135.0,559.36,-270.56,234.08
1997.7077,-927.81,107.421,-374.418,1557.5,-962.5,-1916.25,556.32,-278.16,232.56
1997.7577,-927.2,111.203,-378.139,1181.25,-376.25,-2056.25,570.0,-276.64,241.68
1997.8077,-926.834,113.399,-378.2,1006.25,-306.25,-2336.25,576.08,-288.8,247.76
1997.8577,-930.067,106.994,-379.664,1732.5,-647.5,-2091.25,573.04,-279.68,241.68
1997.9077,-930.128,110.349,-380.64,1907.5,-1032.5,-2091.25,553.28,-272.08,229.52
1997.9577,-929.152,112.545,-379.664,1750.0,-700.0,-2030.0,547.2,-279.68,244.72
1998.0077,-921.71,109.129,-379.847,1645.0,-472.5,-2283.75,571.52,-256.88,256.88
1998.0577,-934.886,107.543,-380.579,2135.0,-262.5,-3167.5,560.88,-273.6,241.68
1998.1077,-925.614,106.75,-377.651,2073.75,-1610.0,-1820.0,554.8,-273.6,235.6
1998.1577,-922.137,113.826,-377.834,1426.25,-472.5,-1618.75,545.68,-290.32,237.12
1998.2077,-929.64,112.118,-381.25,315.0,-236.25,-2983.75,559.36,-270.56,229.52
1998.2577,-924.577,102.114,-379.115,1172.5,-463.75,-2747.5,568.48,-266.0,238.64
1998.3077,-928.237,103.273,-381.86,2668.75,717.5,-1933.75,560.88,-267.52,241.68
1998.3577,-927.688,109.8,-385.398,1951.25,148.75,-2362.5,565.44,-273.6,250.8
1998.4077,-925.98,103.212,-382.47,962.5,-647.5,-2283.75,565.44,-273.6,246.24
1998.4577,-924.821,102.541,-381.799,1190.0,-770.0,-1767.5,550.24,-273.6,228.0
1998.5077,-925.187,106.262,-383.934,1251.25,-735.0,-1758.75,541.12,-278.16,231.04
1998.5577,-922.991,108.641,-383.568,1015.0,-262.5,-1531.25,554.8,-275.12,228.0
1998.6077,-922.869,110.349,-382.775,945.0,-8.75,-1890.0,560.88,-278.16,231.04
1998.6577,-924.76,107.604,-386.923,1163.75,-288.75,-2073.75,565.44,-273.6,243.2
1998.7077,-929.64,107.421,-384.727,1706.25,-717.5,-2030.0,542.64,-281.2,237.12
1998.7577,-922.747,112.057,-386.13,1618.75,-665.0,-1916.25,557.84,-275.12,232.56
1998.8077,-925.431,113.216,-386.313,1198.75,-481.25,-1898.75,554.8,-284.24,241.68
1998.8577,-927.2,107.909,-388.265,1111.25,-455.0,-2633.75,551.76,-281.2,238.64
1998.9077,-927.383,107.848,-382.348,1443.75,-2073.75,-2248.75,556.32,-284.24,244.72
1998.9577,-917.135,107.177,-385.276,2143.75,-1128.75,-1907.5,560.88,-285.76,250.8
1999.0077,-930.555,111.996,-381.616,1102.5,-918.75,-2668.75,547.2,-273.6,244.72
1999.0577,-929.091,107.726,-384.483,1041.25,-1286.25,-2581.25,542.64,-285.76,250.8
1999.1077,-924.882,102.053,-382.165,1592.5,-752.5,-2047.5,557.84,-287.28,241.68
1999.1577,-924.882,109.373,-389.485,2362.5,-630.0,-2283.75,565.44,-267.52,235.6
1999.2077,-928.786,106.384,-385.52,1505.0,-1032.5,-1890.0,554.8,-281.2,235.6
1999.2577,-923.357,107.177,-383.812,927.5,-1758.75,-1785.0,554.8,-273.6,231.04
1999.3077,-930.433,107.116,-385.581,857.5,-2065.0,-2231.25,554.8,-281.2,228.0
1999.3577,-924.211,106.567,-376.919,1137.5,-2240.0,-1872.5,560.88,-284.24,244.72
1999.4077,-927.932,109.251,-378.383,1452.5,-1592.5,-1618.75,554.8,-267.52,243.2
1999.4577,-927.139,111.386,-380.884,910.0,-962.5,-2091.25,565.44,-273.6,234.08
1999.5077,-928.481,109.129,-377.712,822.5,-1128.75,-2143.75,570.0,-275.12,231.04
1999.5577,-927.871,108.946,-378.993,1312.5,-1373.75,-1855.0,559.36,-279.68,250.8
1999.6077,-927.627,109.861,-378.139,1076.25,-1023.75,-1330.0,553.28,-279.68,252.32
1999.6577,-922.381,112.24,-377.712,1146.25,-437.5,-1995.0,559.36,-293.36,238.64
1999.7077,-932.141,106.201,-376.065,1820.0,-1050.0,-2878.75,545.68,-275.12,250.8
1999.7577,-926.224,104.981,-379.054,2170.0,-1295.0,-1916.25,545.68,-273.6,232.56
1999.8077,-925.126,115.29,-378.566,1312.5,-490.0,-1863.75,560.88,-279.68,243.2
1999.8577,-929.396,111.02,-379.054,717.5,-560.0,-2922.5,565.44,-281.2,241.68
1999.9077,-925.309,102.175,-377.041,1592.5,-463.75,-2327.5,553.28,-293.36,237.12
1999.9577,-926.224,106.14,-381.738,2292.5,280.0,-1662.5,545.68,-276.64,221.92
2000.0077,-929.701,112.789,-382.104,1610.0,-455.0,-2248.75,550.24,-279.68,237.12
2000.0577,-925.736,107.055,-379.725,1233.75,-857.5,-2520.0,556.32,-276.64,238.64
2000.1077,-925.797,107.055,-379.908,1426.25,-507.5,-2047.5,551.76,-279.68,228.0
2000.1577,-927.2,108.763,-379.664,1601.25,-1015.0,-2056.25,554.8,-287.28,234.08
2000.2077,-922.869,108.092,-380.457,1338.75,-411.25,-2065.0,548.72,-290.32,252.32
2000.2577,-927.078,110.654,-380.457,953.75,-157.5,-2240.0,560.88,-272.08,243.2
2000.3077,-926.712,109.434,-383.141,848.75,-236.25,-2135.0,563.92,-276.64,235.6
2000.3577,-927.749,108.946,-381.677,1277.5,-446.25,-1986.25,559.36,-273.6,249.28
2000.4077,-924.577,109.007,-382.287,1487.5,-192.5,-2047.5,566.96,-284.24,238.64
2000.4577,-927.2,112.362,-382.714,1443.75,-192.5,-1942.5,556.32,-276.64,234.08
2000.5077,-923.723,111.752,-387.594,1330.0,140.0,-2362.5,566.96,-273.6,240.16
2000.5577,-930.677,107.116,-384.605,1373.75,-533.75,-2948.75,554.8,-278.16,220.4
2000.6077,-920.429,105.042,-383.08,1741.25,-1023.75,-1566.25,559.36,-288.8,240.16
2000.6577,-925.736,115.229,-384.788,1102.5,-542.5,-1233.75,550.24,-279.68,238.64
2000.7077,-924.882,112.789,-385.581,437.5,-463.75,-2642.5,550.24,-284.24,241.68
2000.7577,-926.956,105.286,-384.3,1041.25,-962.5,-2756.25,563.92,-281.2,247.76
2000.8077,-926.956,107.787,-385.337,2397.5,-341.25,-2073.75,566.96,-273.6,244.72
2000.8577,-924.943,111.63,-386.496,1312.5,-1190.0,-2362.5,551.76,-279.68,231.04
2000.9078,-926.346,108.275,-383.141,840.0,-1548.75,-2415.0,557.84,-291.84,234.08
2000.9577,-924.882,107.97,-383.324,1365.0,-1452.5,-2266.25,556.32,-281.2,249.28
2001.0077,-924.455,106.506,-385.642,1610.0,-1085.0,-2170.0,566.96,-275.12,221.92
2001.0577,-926.834,109.312,-383.507,1443.75,-1286.25,-1636.25,557.84,-276.64,243.2
2001.1077,-923.54,111.691,-383.446,1207.5,-1330.0,-2021.25,547.2,-287.28,237.12
2001.1577,-927.017,109.861,-380.945,1128.75,-1321.25,-2371.25,556.32,-276.64,247.76
2001.2077,-927.261,107.848,-379.054,1610.0,-1557.5,-2047.5,574.56,-279.68,238.64
2001.2577,-926.102,109.373,-381.311,1645.0,-1575.0,-2047.5,553.28,-264.48,235.6
2001.3077,-923.845,115.351,-380.64,682.5,-1006.25,-2073.75,565.44,-287.28,240.16
2001.3577,-925.797,112.362,-383.263,1006.25,-393.75,-2511.25,588.24,-284.24,250.8
2001.4077,-932.69,107.787,-380.64,1723.75,-2003.75,-2423.75,553.28,-276.64,229.52
2001.4577,-924.028,106.018,-378.871,2292.5,-1977.5,-1566.25,553.28,-273.6,235.6
2001.5077,-927.261,116.51,-378.2,1058.75,-1041.25,-1960.0,570.0,-275.12,238.64
2001.5577,-927.871,110.715,-380.152,498.75,-621.25,-2528.75,565.44,-284.24,240.16
2001.6077,-922.015,103.883,-381.311,1382.5,-840.0,-1767.5,550.24,-281.2,237.12
2001.6577,-929.335,111.996,-381.86,2030.0,-446.25,-1995.0,565.44,-281.2,235.6
2001.7077,-927.566,112.484,-380.701,1408.75,-848.75,-2283.75,551.76,-285.76,220.4
2001.7577,-926.224,107.787,-377.651,901.25,-1041.25,-2082.5,566.96,-270.56,232.56
2001.8077,-928.359,110.776,-376.736,1330.0,-700.0,-2178.75,576.08,-276.64,232.56
2001.8577,-926.773,108.519,-378.688,1496.25,-796.25,-1706.25,562.4,-279.68,231.04
2001.9077,-925.309,112.423,-375.394,1373.75,-446.25,-1793.75,566.96,-281.2,247.76
2001.9577,-927.444,110.532,-379.969,962.5,-201.25,-2065.0,565.44,-278.16,240.16
2002.0077,-925.675,110.166,-381.067,1566.25,-516.25,-2108.75,573.04,-276.64,241.68
2002.0577,-927.505,111.569,-380.945,1916.25,-568.75,-2362.5,551.76,-281.2,232.56
2002.1077,-926.041,109.739,-381.006,1583.75,-770.0,-2126.25,548.72,-278.16,240.16
2002.1577,-927.688,111.447,-380.762,1487.5,-656.25,-2091.25,573.04,-275.12,231.04
2002.2077,-923.052,112.057,-384.727,1076.25,-253.75,-2345.0,557.84,-281.2,240.16
2002.2577,-930.982,106.628,-378.261,1592.5,-586.25,-2957.5,554.8,-275.12,218.88
2002.3077,-927.322,107.116,-378.017,2038.75,-805.0,-1443.75,573.04,-276.64,250.8
2002.3577,-921.649,114.863,-380.518,1426.25,-87.5,-1426.25,556.32,-281.2,240.16
2002.4077,-926.895,112.972,-382.897,472.5,201.25,-2738.75,545.68,-281.2,241.68
2002.4577,-919.087,106.14,-382.958,1435.0,-280.0,-1968.75,560.88,-281.2,244.72
2002.5077,-927.81,105.53,-385.459,2275.0,236.25,-2047.5,580.64,-281.2,240.16
2002.5577,-924.943,112.423,-387.472,1163.75,-700.0,-1986.25,554.8,-278.16,240.16
2002.6077,-923.174,109.922,-383.812,673.75,-770.0,-1758.75,550.24,-269.04,255.36
2002.6577,-925.797,111.081,-383.263,892.5,-1023.75,-2073.75,556.32,-284.24,235.6
2002.7077,-923.174,110.105,-385.032,1015.0,-1015.0,-2038.75,565.44,-281.2,234.08
2002.7577,-922.564,112.24,-381.189,1400.0,-813.75,-1575.0,562.4,-281.2,237.12
2002.8077,-926.102,111.142,-385.154,1268.75,-813.75,-2222.5,556.32,-276.64,241.68
2002.8577,-924.089,111.63,-384.544,1032.5,-761.25,-2213.75,559.36,-293.36,244.72
2002.9077,-924.943,109.617,-385.825,1618.75,-918.75,-2275.0,568.48,-281.2,246.24
2002.9577,-926.102,111.081,-385.52,1723.75,-1417.5,-2152.5,545.68,-276.64,231.04
2003.0077,-924.272,114.741,-383.934,1505.0,-1461.25,-1977.5,559.36,-279.68,240.16
2003.0577,-921.954,109.007,-385.886,1522.5,-822.5,-2415.0,539.6,-282.72,241.68
2003.1078,-931.653,109.068,-380.03,2073.75,-1321.25,-2940.0,559.36,-284.24,237.12
2003.1577,-926.712,108.641,-379.298,1916.25,-2100.0,-1898.75,565.44,-273.6,238.64
2003.2077,-923.296,115.473,-377.468,1330.0,-1233.75,-1907.5,548.72,-290.32,241.68
2003.2577,-928.725,109.617,-382.104,822.5,-577.5,-3001.25,550.24,-276.64,228.0
2003.3077,-929.03,106.506,-381.738,1802.5,-612.5,-2432.5,544.16,-284.24,243.2
2003.3577,-926.895,109.19,-383.873,2371.25,-525.0,-2135.0,548.72,-290.32,235.6
2003.4077,-929.213,111.813,-383.568,1513.75,-726.25,-2362.5,541.12,-291.84,226.48
2003.4577,-925.919,108.946,-380.823,1102.5,-1373.75,-2100.0,566.96,-275.12,238.64
2003.5077,-925.858,109.739,-381.494,1050.0,-1627.5,-2082.5,544.16,-288.8,253.84
2003.5577,-928.237,109.495,-380.091,1382.5,-1338.75,-2073.75,559.36,-278.16,240.16
2003.6077,-926.285,111.325,-378.078,1522.5,-1155.0,-1811.25,556.32,-273.6,232.56
2003.6577,-925.736,111.752,-379.298,1137.5,-533.75,-2047.5,551.76,-276.64,243.2
2003.7077,-927.322,108.702,-382.104,927.5,-875.0,-2187.5,553.28,-291.84,232.56
2003.7577,-926.407,107.909,-379.542,1452.5,-796.25,-2091.25,557.84,-284.24,232.56
2003.8077,-926.651,110.593,-378.627,1995.0,-1181.25,-2178.75,562.4,-267.52,228.0
2003.8577,-923.967,112.301,-377.102,1688.75,-778.75,-1960.0,570.0,-284.24,240.16
2003.9077,-923.54,110.471,-381.067,1093.75,-402.5,-2240.0,566.96,-285.76,243.2
2003.9577,-929.152,109.678,-381.311,1382.5,-218.75,-2765.0,568.48,-281.2,238.64
2004.0077,-930.433,105.652,-377.59,2003.75,-1470.0,-2345.0,548.72,-279.68,234.08
2004.0577,-923.113,113.277,-380.518,1872.5,-603.75,-1461.25,547.2,-284.24,241.68
2004.1077,-926.651,114.619,-383.202,918.75,-341.25,-2660.0,553.28,-279.68,228.0
2004.1577,-928.481,103.578,-381.616,1251.25,-700.0,-2537.5,565.44,-281.2,237.12
2004.2077,-921.222,104.92,-380.152,1995.0,175.0,-1776.25,550.24,-272.08,235.6
2004.2577,-930.25,114.07,-385.642,1478.75,-516.25,-2336.25,556.32,-278.16,247.76
2004.3077,-926.773,109.556,-382.165,1015.0,-971.25,-2450.0,563.92,-281.2,246.24
2004.3577,-925.37,108.763,-381.86,1277.5,-1032.5,-2117.5,550.24,-279.68,241.68
2004.4077,-926.163,107.238,-382.165,1461.25,-682.5,-2082.5,570.0,-287.28,240.16
2004.4577,-923.296,108.946,-381.25,1347.5,-358.75,-1828.75,551.76,-279.68,234.08
2004.5077,-924.211,112.484,-383.812,927.5,-148.75,-2161.25,557.84,-285.76,241.68
2004.5577,-926.773,110.959,-386.313,796.25,-192.5,-2196.25,548.72,-269.04,240.16
2004.6077,-926.773,108.397,-386.374,1356.25,-743.75,-2030.0,565.44,-278.16,240.16
2004.6577,-924.699,109.8,-385.459,1592.5,-857.5,-2100.0,559.36,-281.2,235.6
2004.7077,-923.662,111.935,-383.812,1435.0,-805.0,-2047.5,553.28,-279.68,247.76
